{
  "resourceType": "Bundle",
  "id": "f001",
  "type": "collection",
  "entry": [
    {
      "fullUrl": "https://example.com/base/Claim/claim1",
      "resource": {
        "resourceType": "Claim",
        "id": "claim1",
        "status": "active",
        "type": {
          "coding": [
            {
              "system": "http://terminology.hl7.org/CodeSystem/claim-type",
              "code": "professional",
              "display": "Professional"
            }
          ]
        },
        "use": "preauthorization",
        "patient": {
          "reference": "Patient/pat013"
        },
        "created": "2019-08-06",
        "provider": {
          "reference": "Practitioner/pra1234"
        },
        "priority": {
          "coding": [
            {
              "code": "normal"
            }
          ]
        },
        "prescription": {
          "reference": "DeviceRequest/devreq013"
        },
        "supportingInfo": [
          {
            "sequence": 1,
            "category": {
              "coding": [
                {
                  "system": "http://terminology.hl7.org/CodeSystem/claiminformationcategory",
                  "code": "info",
                  "display": "Information"
                }
              ]
            },
            "valueReference": {
              "reference": "QuestionnaireResponse/response1"
            }
          }
        ],
        "diagnosis": [
          {
            "sequence": 1,
            "diagnosisReference": {
              "reference": "Condition/cond013a"
            }
          },
          {
            "sequence": 2,
            "diagnosisReference": {
              "reference": "Condition/cond013b"
            }
          },
          {
            "sequence": 3,
            "diagnosisReference": {
              "reference": "Condition/cond013c"
            }
          }
        ],
        "insurance": [
          {
            "sequence": 1,
            "focal": true,
            "coverage": {
              "reference": "Coverage/cov1234"
            }
          }
        ]
      }
    },
    {
      "fullUrl": "https://example.com/base/Patient/pat013",
      "resource": {
        "resourceType": "Patient",
        "id": "pat013",
        "text": {
          "status": "generated",
          "div": "<div xmlns=\"http://www.w3.org/1999/xhtml\">\n\t\t\t<table>\n\t\t\t\t<tbody>\n\t\t\t\t\t<tr>\n\t\t\t\t\t\t<td>Name</td>\n\t\t\t\t\t\t<td>Peter James \n              <b>Chalmers</b> (&quot;Jim&quot;)\n            </td>\n\t\t\t\t\t</tr>\n\t\t\t\t\t<tr>\n\t\t\t\t\t\t<td>Address</td>\n\t\t\t\t\t\t<td>534 Erewhon, Pleasantville, Vic, 3999</td>\n\t\t\t\t\t</tr>\n\t\t\t\t\t<tr>\n\t\t\t\t\t\t<td>Contacts</td>\n\t\t\t\t\t\t<td>Home: unknown. Work: (03) 5555 6473</td>\n\t\t\t\t\t</tr>\n\t\t\t\t\t<tr>\n\t\t\t\t\t\t<td>Id</td>\n\t\t\t\t\t\t<td>MRN: 12345 (Acme Healthcare)</td>\n\t\t\t\t\t</tr>\n\t\t\t\t</tbody>\n\t\t\t</table>\n\t\t</div>"
        },
        "identifier": [
          {
            "use": "usual",
            "type": {
              "coding": [
                {
                  "system": "http://terminology.hl7.org/CodeSystem/v2-0203",
                  "code": "MR"
                }
              ]
            },
            "system": "urn:oid:1.2.36.146.595.217.0.1",
            "value": "12345",
            "period": {
              "start": "2001-05-06"
            },
            "assigner": {
              "display": "Acme Healthcare"
            }
          }
        ],
        "active": true,
        "name": [
          {
            "use": "official",
            "family": "Chalmers",
            "given": ["Peter", "James"]
          },
          {
            "use": "usual",
            "given": ["Jim"]
          },
          {
            "use": "maiden",
            "family": "Windsor",
            "given": ["Peter", "James"],
            "period": {
              "end": "2002"
            }
          }
        ],
        "telecom": [
          {
            "use": "home"
          },
          {
            "system": "phone",
            "value": "(03) 5555 6473",
            "use": "work",
            "rank": 1
          },
          {
            "system": "phone",
            "value": "(03) 3410 5613",
            "use": "mobile",
            "rank": 2
          },
          {
            "system": "phone",
            "value": "(03) 5555 8834",
            "use": "old",
            "period": {
              "end": "2014"
            }
          }
        ],
        "gender": "male",
        "birthDate": "1974-12-25",
        "_birthDate": {
          "extension": [
            {
              "url": "http://hl7.org/fhir/StructureDefinition/patient-birthTime",
              "valueDateTime": "1974-12-25T14:35:45-05:00"
            }
          ]
        },
        "deceasedBoolean": false,
        "address": [
          {
            "use": "home",
            "type": "both",
            "text": "534 Erewhon St PeasantVille, Rainbow, Vic  3999",
            "line": ["534 Erewhon St"],
            "city": "PleasantVille",
            "district": "Rainbow",
            "state": "Vic",
            "postalCode": "3999",
            "period": {
              "start": "1974-12-25"
            }
          }
        ],
        "contact": [
          {
            "relationship": [
              {
                "coding": [
                  {
                    "system": "http://terminology.hl7.org/CodeSystem/v2-0131",
                    "code": "N"
                  }
                ]
              }
            ],
            "name": {
              "family": "du Marché",
              "_family": {
                "extension": [
                  {
                    "url": "http://hl7.org/fhir/StructureDefinition/humanname-own-prefix",
                    "valueString": "VV"
                  }
                ]
              },
              "given": ["Bénédicte"]
            },
            "telecom": [
              {
                "system": "phone",
                "value": "+33 (237) 998327"
              }
            ],
            "address": {
              "use": "home",
              "type": "both",
              "line": ["534 Erewhon St"],
              "city": "PleasantVille",
              "district": "Rainbow",
              "state": "Vic",
              "postalCode": "3999",
              "period": {
                "start": "1974-12-25"
              }
            },
            "gender": "female",
            "period": {
              "start": "2012"
            }
          }
        ],
        "managingOrganization": {
          "reference": "Organization/1"
        }
      }
    },
    {
      "fullUrl": "https://example.com/base/DiagnosticReport/f001",
      "resource": {
        "resourceType": "DiagnosticReport",
        "id": "f001",
        "text": {
          "status": "generated",
          "div": "<div xmlns=\"http://www.w3.org/1999/xhtml\"><p><b>Generated Narrative with Details</b></p><p><b>id</b>: f001</p><p><b>identifier</b>: nr1239044 (OFFICIAL)</p><p><b>basedOn</b>: <a>ServiceRequest/req</a></p><p><b>status</b>: final</p><p><b>category</b>: Haematology test <span>(Details : {SNOMED CT code '252275004' = 'Haematology test', given as 'Haematology test'}; {http://terminology.hl7.org/CodeSystem/v2-0074 code 'HM' = 'Hematology)</span></p><p><b>code</b>: Complete blood count (hemogram) panel - Blood by Automated count <span>(Details : {LOINC code '58410-2' = 'Complete blood count (hemogram) panel - Blood by Automated count', given as 'Complete blood count (hemogram) panel - Blood by Automated count'})</span></p><p><b>subject</b>: <a>P. van den Heuvel</a></p><p><b>issued</b>: 15/05/2013 7:32:52 PM</p><p><b>performer</b>: <a>Burgers University Medical Centre</a></p><p><b>result</b>: </p><ul><li><a>Observation/f001</a></li><li><a>Observation/f002</a></li><li><a>Observation/f003</a></li><li><a>Observation/f004</a></li><li><a>Observation/f005</a></li></ul><p><b>conclusion</b>: Core lab</p></div>"
        },
        "identifier": [
          {
            "use": "official",
            "system": "http://www.bmc.nl/zorgportal/identifiers/reports",
            "value": "nr1239044"
          }
        ],
        "basedOn": [
          {
            "reference": "ServiceRequest/req"
          }
        ],
        "status": "final",
        "category": [
          {
            "coding": [
              {
                "system": "http://snomed.info/sct",
                "code": "252275004",
                "display": "Haematology test"
              },
              {
                "system": "http://terminology.hl7.org/CodeSystem/v2-0074",
                "code": "HM"
              }
            ]
          }
        ],
        "code": {
          "coding": [
            {
              "system": "http://loinc.org",
              "code": "58410-2",
              "display": "Complete blood count (hemogram) panel - Blood by Automated count"
            }
          ]
        },
        "subject": {
          "reference": "Patient/f001",
          "display": "P. van den Heuvel"
        },
        "issued": "2013-05-15T19:32:52+01:00",
        "performer": [
          {
            "reference": "Organization/f001",
            "display": "Burgers University Medical Centre"
          }
        ],
        "result": [
          {
            "reference": "Observation/f001"
          },
          {
            "reference": "Observation/f002"
          },
          {
            "reference": "Observation/f003"
          },
          {
            "reference": "Observation/f004"
          },
          {
            "reference": "Observation/f005"
          }
        ],
        "conclusion": "Core lab"
      }
    },
    {
      "fullUrl": "https://example.com/base/ServiceRequest/req",
      "resource": {
        "resourceType": "ServiceRequest",
        "id": "req",
        "text": {
          "status": "generated",
          "div": "<div xmlns=\"http://www.w3.org/1999/xhtml\"><p><b>Generated Narrative with Details</b></p><p><b>id</b>: req</p><p><b>identifier</b>: L2381</p><p><b>status</b>: active</p><p><b>intent</b>: original-order</p><p><b>code</b>: Complete blood count (hemogram) panel - Blood by Automated count <span>(Details : {LOINC code '58410-2' = 'Complete blood count (hemogram) panel - Blood by Automated count', given as 'Complete blood count (hemogram) panel - Blood by Automated count'})</span></p><p><b>subject</b>: <a>P. van den Heuvel</a></p><p><b>encounter</b>: <a>Encounter/f001</a></p><p><b>requester</b>: <a>E.van den Broek</a></p><p><b>note</b>: patient almost fainted during procedure</p></div>"
        },
        "extension": [
          {
            "url": "http://example.org/bodysitecode",
            "valueCodeableConcept": {
              "coding": [
                {
                  "system": "http://snomed.info/sct",
                  "code": "14975008",
                  "display": "Forearm structure"
                }
              ]
            }
          }
        ],
        "identifier": [
          {
            "system": "http://www.bmc.nl/zorgportal/identifiers/labresults",
            "value": "L2381"
          }
        ],
        "status": "active",
        "intent": "original-order",
        "code": {
          "coding": [
            {
              "system": "http://loinc.org",
              "code": "58410-2",
              "display": "Complete blood count (hemogram) panel - Blood by Automated count"
            }
          ]
        },
        "subject": {
          "reference": "Patient/f001",
          "display": "P. van den Heuvel"
        },
        "encounter": {
          "reference": "Encounter/f001"
        },
        "requester": {
          "reference": "Practitioner/f001",
          "display": "E.van den Broek"
        },
        "note": [
          {
            "text": "patient almost fainted during procedure"
          }
        ]
      }
    }
  ]
}
